Folder: XRD/mof-801_xrd (part 2)

File: 5L-3.csv
"No.","Pos. [°2θ]","Iobs [cps]"
"1","5.0197","175.1426"
"6","5.2147","167.9602"
"11","5.4097","156.2279"
"16","5.6047","150.4078"
"21","5.7997","147.3569"
"26","5.9947","143.1909"
"31","6.1897","138.2080"
"36","6.3847","136.8826"
"41","6.5797","135.8486"
"46","6.7747","137.4338"
"51","6.9697","136.8504"
"56","7.1647","133.5648"
"61","7.3597","128.9163"
"66","7.5547","130.0062"
"71","7.7497","132.2008"
"76","7.9447","145.9503"
"81","8.1397","197.1178"
"86","8.3347","371.2308"
"91","8.5297","792.3782"
"96","8.7247","173.2198"
"101","8.9197","135.4541"
"106","9.1147","128.4781"
"111","9.3097","130.4853"
"116","9.5047","150.7606"
"121","9.6997","244.7965"
"126","9.8947","338.1796"
"131","10.0897","130.7946"
"136","10.2847","123.6843"
"141","10.4797","120.6181"
"146","10.6747","115.9388"
"151","10.8697","117.3406"
"156","11.0647","116.2921"
"161","11.2597","113.9380"
"166","11.4547","111.9277"
"171","11.6497","115.2913"
"176","11.8447","110.8964"
"181","12.0397","110.1922"
"186","12.2347","110.7863"
"191","12.4297","110.4737"
"196","12.6247","107.0840"
"201","12.8197","106.6304"
"206","13.0147","105.5586"
"211","13.2097","103.2756"
"216","13.4047","105.8728"
"221","13.5997","104.3232"
"226","13.7947","110.6954"
"231","13.9897","121.6276"
"236","14.1847","106.2359"
"241","14.3797","101.2437"
"246","14.5747","101.1041"
"251","14.7697","101.6694"
"256","14.9647","98.6680"
"261","15.1597","99.9150"
"266","15.3547","99.2666"
"271","15.5497","97.6373"
"276","15.7447","95.1249"
"281","15.9397","95.0314"
"286","16.1347","97.0837"
"291","16.3297","98.2200"
"296","16.5247","95.8007"
"301","16.7197","93.0066"
"306","16.9147","96.0780"
"311","17.1097","94.1528"
"316","17.3047","91.9123"
"321","17.4997","93.9304"
"326","17.6947","93.5105"
"331","17.8897","92.9013"
"336","18.0847","92.0053"
"341","18.2797","93.8173"
"346","18.4747","94.0608"
"351","18.6697","91.3524"
"356","18.8647","93.0177"
"361","19.0597","90.9137"
"366","19.2547","91.8190"
"371","19.4497","92.7522"
"376","19.6447","99.2346"
"381","19.8397","111.5057"
"386","20.0347","88.5502"
"391","20.2297","92.5382"
"396","20.4247","91.8379"
"401","20.6197","90.9733"
"406","20.8147","89.5083"
"411","21.0097","89.8427"
"416","21.2047","93.2288"
"421","21.3997","103.8241"
"426","21.5947","182.6892"
"431","21.7897","100.1176"
"436","21.9847","91.6020"
"441","22.1797","99.7463"
"446","22.3747","91.9792"
"451","22.5697","93.0688"
"456","22.7647","97.8859"
"461","22.9597","92.9321"
"466","23.1547","91.8905"
"471","23.3497","91.5952"
"476","23.5447","91.4254"
"481","23.7397","91.3489"
"486","23.9347","93.1907"
"491","24.1297","99.2391"
"496","24.3247","150.3681"
"501","24.5197","99.8506"
"506","24.7147","95.9257"
"511","24.9097","93.8902"
"516","25.1047","97.8154"
"521","25.2997","102.7607"
"526","25.4947","103.0188"
"531","25.6897","127.8283"
"536","25.8847","176.1732"
"541","26.0797","99.2027"
"546","26.2747","96.4145"
"551","26.4697","95.3318"
"556","26.6647","94.8094"
"561","26.8597","93.6138"
"566","27.0547","92.7011"
"571","27.2497","92.1976"
"576","27.4447","90.2087"
"581","27.6397","89.7766"
"586","27.8347","89.1085"
"591","28.0297","93.5699"
"596","28.2247","97.9461"
"601","28.4197","87.9068"
"606","28.6147","87.5659"
"611","28.8097","89.2167"
"616","29.0047","88.2984"
"621","29.1997","93.9862"
"626","29.3947","106.3163"
"631","29.5897","110.4025"
"636","29.7847","134.7285"
"641","29.9797","195.3122"
"646","30.1747","95.8436"
"651","30.3697","90.4438"
"656","30.5647","89.1908"
"661","30.7597","87.9463"
"666","30.9547","86.6847"
"671","31.1497","86.5846"
"676","31.3447","83.7431"
"681","31.5397","86.1886"
"686","31.7347","87.0021"
"691","31.9297","88.4818"
"696","32.1247","88.2589"
"701","32.3197","86.2572"
"706","32.5147","84.1955"
"711","32.7097","110.4650"
"716","32.9047","95.2731"
"721","33.0997","85.0121"
"726","33.2947","84.6280"
"731","33.4897","82.6799"
"736","33.6847","83.2463"
"741","33.8797","81.0827"
"746","34.0747","81.1170"
"751","34.2697","81.8589"
"756","34.4647","86.9590"
"761","34.6597","131.4585"
"766","34.8547","92.6261"
"771","35.0497","82.2916"
"776","35.2447","83.5262"
"781","35.4397","86.6923"
"786","35.6347","92.0843"
"791","35.8297","106.2092"
"796","36.0247","83.8450"
"801","36.2197","78.0651"
"806","36.4147","77.4610"
"811","36.6097","78.7541"
"816","36.8047","79.7340"
"821","36.9997","80.6561"
"826","37.1947","77.9943"
"831","37.3897","81.0770"
"836","37.5847","80.0974"
"841","37.7797","80.4727"
"846","37.9747","80.1151"
"851","38.1697","81.8136"
"856","38.3647","83.1531"
"861","38.5597","118.6503"
"866","38.7547","95.2117"
"871","38.9497","79.3568"
"876","39.1447","78.8905"
"881","39.3397","81.6243"
"886","39.5347","79.1668"
"891","39.7297","77.1483"
"896","39.9247","78.4947"
"901","40.1197","81.3042"
"906","40.3147","90.7757"
"911","40.5097","82.1611"
"916","40.7047","78.8440"
"921","40.8997","76.7166"
"926","41.0947","78.3376"
"931","41.2897","80.4206"
"936","41.4847","103.7145"
"941","41.6797","104.0373"
"946","41.8747","80.5958"
"951","42.0697","77.8038"
"956","42.2647","78.4385"
"961","42.4597","79.3484"
"966","42.6547","82.6787"
"971","42.8497","105.1964"
"976","43.0447","85.4743"
"981","43.2397","77.4143"
"986","43.4347","80.5752"
"991","43.6297","97.1302"
"996","43.8247","124.5736"
"1001","44.0197","94.6320"
"1006","44.2147","85.3319"
"1011","44.4097","77.0561"
"1016","44.6047","76.9739"
"1021","44.7997","74.0956"
"1026","44.9947","75.5253"
"1031","45.1897","81.5123"
"1036","45.3847","80.0662"
"1041","45.5797","79.3514"
"1046","45.7747","79.0852"
"1051","45.9697","79.2844"
"1056","46.1647","83.4835"
"1061","46.3597","76.2076"
"1066","46.5547","73.7350"
"1071","46.7497","73.9781"
"1076","46.9447","73.1612"
"1081","47.1397","74.7703"
"1086","47.3347","72.4996"
"1091","47.5297","72.9957"
"1096","47.7247","72.5061"
"1101","47.9197","75.5972"
"1106","48.1147","71.3899"
"1111","48.3097","70.5880"
"1116","48.5047","74.4604"
"1121","48.6997","72.1612"
"1126","48.8947","70.4285"
"1131","49.0897","71.8375"
"1136","49.2847","71.9315"
"1141","49.4797","73.9530"
"1146","49.6747","71.0686"
"1151","49.8697","71.4267"
"1156","50.0647","71.7280"
"1161","50.2597","71.6366"
"1166","50.4547","75.5053"
"1171","50.6497","102.5826"
"1176","50.8447","98.9819"
"1181","51.0397","89.9271"
"1186","51.2347","76.2667"
"1191","51.4297","73.9194"
"1196","51.6247","72.6453"
"1201","51.8197","73.0947"
"1206","52.0147","82.7420"
"1211","52.2097","79.1503"
"1216","52.4047","74.3311"
"1221","52.5997","72.1290"
"1226","52.7947","76.7608"
"1231","52.9897","78.8000"
"1236","53.1847","79.2778"
"1241","53.3797","72.0870"
"1246","53.5747","73.9203"
"1251","53.7697","72.8211"
"1256","53.9647","72.1798"
"1261","54.1597","70.1616"
"1266","54.3547","70.6512"
"1271","54.5497","72.9929"
"1276","54.7447","72.3911"
"1281","54.9397","73.6953"
"1286","55.1347","74.4008"
"1291","55.3297","73.1070"
"1296","55.5247","69.7321"
"1301","55.7197","73.5227"
"1306","55.9147","71.5618"
"1311","56.1097","73.5043"
"1316","56.3047","82.7378"
"1321","56.4997","74.8590"
"1326","56.6947","73.1795"
"1331","56.8897","73.5673"
"1336","57.0847","77.4782"
"1341","57.2797","71.0869"
"1346","57.4747","73.4384"
"1351","57.6697","72.0350"
"1356","57.8647","70.5632"
"1361","58.0597","69.6310"
"1366","58.2547","76.4828"
"1371","58.4497","73.7230"
"1376","58.6447","71.3766"
"1381","58.8397","75.8558"
"1386","59.0347","92.0289"
"1391","59.2297","92.2762"
"1396","59.4247","79.3431"
"1401","59.6197","71.6261"
"1406","59.8147","71.2219"
"1409","59.9317","67.5333"

File: 5L-4.csv
"No.","Pos. [°2θ]","Iobs [cps]"
"1","5.0197","169.4367"
"6","5.2147","158.3018"
"11","5.4097","154.1549"
"16","5.6047","146.0087"
"21","5.7997","141.4481"
"26","5.9947","134.9495"
"31","6.1897","137.7562"
"36","6.3847","134.2040"
"41","6.5797","128.9664"
"46","6.7747","131.0193"
"51","6.9697","131.5230"
"56","7.1647","127.3119"
"61","7.3597","124.5913"
"66","7.5547","124.5815"
"71","7.7497","129.7016"
"76","7.9447","140.2944"
"81","8.1397","176.9081"
"86","8.3347","295.8110"
"91","8.5297","666.0490"
"96","8.7247","222.3767"
"101","8.9197","144.5176"
"106","9.1147","133.8586"
"111","9.3097","134.6507"
"116","9.5047","147.5563"
"121","9.6997","208.6796"
"126","9.8947","369.3218"
"131","10.0897","146.1759"
"136","10.2847","127.3581"
"141","10.4797","122.4324"
"146","10.6747","119.9076"
"151","10.8697","118.8877"
"156","11.0647","116.7792"
"161","11.2597","117.7029"
"166","11.4547","115.5997"
"171","11.6497","115.6643"
"176","11.8447","114.5835"
"181","12.0397","115.0819"
"186","12.2347","110.4713"
"191","12.4297","110.0138"
"196","12.6247","108.6888"
"201","12.8197","109.9989"
"206","13.0147","109.4125"
"211","13.2097","107.5759"
"216","13.4047","105.9708"
"221","13.5997","107.3603"
"226","13.7947","108.0794"
"231","13.9897","120.0922"
"236","14.1847","107.0657"
"241","14.3797","102.8456"
"246","14.5747","103.6443"
"251","14.7697","103.1636"
"256","14.9647","100.2992"
"261","15.1597","100.8598"
"266","15.3547","99.7136"
"271","15.5497","98.1220"
"276","15.7447","97.5506"
"281","15.9397","98.3859"
"286","16.1347","96.6610"
"291","16.3297","96.4204"
"296","16.5247","98.3014"
"301","16.7197","94.1738"
"306","16.9147","95.5526"
"311","17.1097","93.3944"
"316","17.3047","93.9704"
"321","17.4997","93.4831"
"326","17.6947","94.7175"
"331","17.8897","95.0499"
"336","18.0847","93.9309"
"341","18.2797","92.2877"
"346","18.4747","94.4153"
"351","18.6697","91.8741"
"356","18.8647","93.1016"
"361","19.0597","92.5519"
"366","19.2547","93.3438"
"371","19.4497","92.9313"
"376","19.6447","93.5492"
"381","19.8397","109.3192"
"386","20.0347","95.8138"
"391","20.2297","92.8528"
"396","20.4247","89.2401"
"401","20.6197","89.3155"
"406","20.8147","92.0297"
"411","21.0097","90.2542"
"416","21.2047","89.2150"
"421","21.3997","97.0639"
"426","21.5947","136.5746"
"431","21.7897","124.2239"
"436","21.9847","95.8189"
"441","22.1797","97.1309"
"446","22.3747","96.1255"
"451","22.5697","94.4151"
"456","22.7647","97.8113"
"461","22.9597","94.6766"
"466","23.1547","93.5854"
"471","23.3497","92.0815"
"476","23.5447","89.8629"
"481","23.7397","92.3934"
"486","23.9347","91.3422"
"491","24.1297","93.6106"
"496","24.3247","118.0923"
"501","24.5197","114.1891"
"506","24.7147","96.8744"
"511","24.9097","97.4167"
"516","25.1047","94.3373"
"521","25.2997","99.2676"
"526","25.4947","102.3461"
"531","25.6897","105.9839"
"536","25.8847","169.8475"
"541","26.0797","109.9651"
"546","26.2747","95.3171"
"551","26.4697","93.6420"
"556","26.6647","93.1277"
"561","26.8597","93.5636"
"566","27.0547","92.9111"
"571","27.2497","90.5650"
"576","27.4447","90.7247"
"581","27.6397","88.1840"
"586","27.8347","89.3056"
"591","28.0297","92.4357"
"596","28.2247","95.3941"
"601","28.4197","88.5267"
"606","28.6147","88.4779"
"611","28.8097","86.2254"
"616","29.0047","86.3314"
"621","29.1997","88.6076"
"626","29.3947","93.5013"
"631","29.5897","115.9826"
"636","29.7847","105.1520"
"641","29.9797","188.3336"
"646","30.1747","112.8976"
"651","30.3697","90.8347"
"656","30.5647","87.8616"
"661","30.7597","87.9362"
"666","30.9547","84.8722"
"671","31.1497","85.1572"
"676","31.3447","84.1726"
"681","31.5397","83.2520"
"686","31.7347","85.2713"
"691","31.9297","89.4157"
"696","32.1247","85.7472"
"701","32.3197","84.3465"
"706","32.5147","84.4809"
"711","32.7097","89.7330"
"716","32.9047","112.0838"
"721","33.0997","84.1538"
"726","33.2947","83.9100"
"731","33.4897","81.2331"
"736","33.6847","80.2620"
"741","33.8797","83.2204"
"746","34.0747","79.6875"
"751","34.2697","80.6607"
"756","34.4647","83.1190"
"761","34.6597","97.9560"
"766","34.8547","113.1519"
"771","35.0497","84.5871"
"776","35.2447","81.5985"
"781","35.4397","85.6797"
"786","35.6347","84.7178"
"791","35.8297","98.9091"
"796","36.0247","89.5226"
"801","36.2197","75.7929"
"806","36.4147","79.0052"
"811","36.6097","78.3960"
"816","36.8047","79.1815"
"821","36.9997","74.2773"
"826","37.1947","77.2141"
"831","37.3897","74.6179"
"836","37.5847","77.0514"
"841","37.7797","79.0440"
"846","37.9747","76.2716"
"851","38.1697","75.7693"
"856","38.3647","79.4620"
"861","38.5597","88.0949"
"866","38.7547","108.6710"
"871","38.9497","83.2931"
"876","39.1447","76.7479"
"881","39.3397","78.2724"
"886","39.5347","77.4524"
"891","39.7297","76.5052"
"896","39.9247","77.5439"
"901","40.1197","77.7687"
"906","40.3147","84.3136"
"911","40.5097","81.3157"
"916","40.7047","77.4654"
"921","40.8997","78.7107"
"926","41.0947","77.6946"
"931","41.2897","77.1914"
"936","41.4847","83.7303"
"941","41.6797","110.3573"
"946","41.8747","84.1311"
"951","42.0697","78.0864"
"956","42.2647","78.9632"
"961","42.4597","75.4822"
"966","42.6547","77.0183"
"971","42.8497","90.6753"
"976","43.0447","88.7857"
"981","43.2397","78.4045"
"986","43.4347","78.2725"
"991","43.6297","82.4408"
"996","43.8247","115.3042"
"1001","44.0197","102.9502"
"1006","44.2147","88.1171"
"1011","44.4097","78.5681"
"1016","44.6047","74.6752"
"1021","44.7997","71.5574"
"1026","44.9947","72.7325"
"1031","45.1897","73.9504"
"1036","45.3847","78.1645"
"1041","45.5797","78.1012"
"1046","45.7747","73.8416"
"1051","45.9697","76.0470"
"1056","46.1647","77.8760"
"1061","46.3597","76.6999"
"1066","46.5547","73.1114"
"1071","46.7497","71.0957"
"1076","46.9447","74.7308"
"1081","47.1397","72.8171"
"1086","47.3347","73.8945"
"1091","47.5297","70.2970"
"1096","47.7247","72.5891"
"1101","47.9197","71.8570"
"1106","48.1147","70.6183"
"1111","48.3097","71.4435"
"1116","48.5047","70.4700"
"1121","48.6997","71.1477"
"1126","48.8947","68.7071"
"1131","49.0897","69.9167"
"1136","49.2847","67.9535"
"1141","49.4797","70.1802"
"1146","49.6747","71.6158"
"1151","49.8697","70.9143"
"1156","50.0647","70.3461"
"1161","50.2597","69.1089"
"1166","50.4547","73.2026"
"1171","50.6497","78.2290"
"1176","50.8447","100.4130"
"1181","51.0397","91.5732"
"1186","51.2347","80.1529"
"1191","51.4297","73.0953"
"1196","51.6247","68.6437"
"1201","51.8197","68.8544"
"1206","52.0147","71.9416"
"1211","52.2097","78.5555"
"1216","52.4047","73.1969"
"1221","52.5997","70.4626"
"1226","52.7947","71.7297"
"1231","52.9897","75.1627"
"1236","53.1847","78.6072"
"1241","53.3797","74.7678"
"1246","53.5747","70.4474"
"1251","53.7697","72.6020"
"1256","53.9647","70.4369"
"1261","54.1597","66.4931"
"1266","54.3547","69.6158"
"1271","54.5497","70.2757"
"1276","54.7447","69.4493"
"1281","54.9397","68.6578"
"1286","55.1347","72.1029"
"1291","55.3297","73.7002"
"1296","55.5247","68.5244"
"1301","55.7197","69.8411"
"1306","55.9147","69.0611"
"1311","56.1097","68.5145"
"1316","56.3047","79.9424"
"1321","56.4997","78.9343"
"1326","56.6947","71.0671"
"1331","56.8897","71.3747"
"1336","57.0847","72.9995"
"1341","57.2797","71.4776"
"1346","57.4747","69.8718"
"1351","57.6697","67.8955"
"1356","57.8647","68.9652"
"1361","58.0597","67.8360"
"1366","58.2547","69.1507"
"1371","58.4497","72.7095"
"1376","58.6447","68.3283"
"1381","58.8397","71.1236"
"1386","59.0347","79.2044"
"1391","59.2297","85.4242"
"1396","59.4247","82.2993"
"1401","59.6197","71.4360"
"1406","59.8147","67.5024"
"1409","59.9317","66.3378"

File: 5L-5.csv
"No.","Pos. [°2θ]","Iobs [cps]"
"1","5.0197","149.8703"
"6","5.2147","146.9729"
"11","5.4097","135.7532"
"16","5.6047","132.4229"
"21","5.7997","128.8203"
"26","5.9947","125.7636"
"31","6.1897","125.0191"
"36","6.3847","124.1333"
"41","6.5797","122.5146"
"46","6.7747","121.8272"
"51","6.9697","125.2531"
"56","7.1647","125.7929"
"61","7.3597","125.2758"
"66","7.5547","127.7255"
"71","7.7497","131.8383"
"76","7.9447","141.1881"
"81","8.1397","164.7397"
"86","8.3347","230.0564"
"91","8.5297","405.1775"
"96","8.7247","237.9355"
"101","8.9197","192.3750"
"106","9.1147","181.2297"
"111","9.3097","175.5682"
"116","9.5047","174.9451"
"121","9.6997","196.6538"
"126","9.8947","253.6629"
"131","10.0897","159.4716"
"136","10.2847","139.5604"
"141","10.4797","134.8742"
"146","10.6747","130.3942"
"151","10.8697","128.1155"
"156","11.0647","124.3700"
"161","11.2597","122.0628"
"166","11.4547","123.1768"
"171","11.6497","119.1710"
"176","11.8447","117.8780"
"181","12.0397","117.6004"
"186","12.2347","115.5736"
"191","12.4297","113.5054"
"196","12.6247","110.8304"
"201","12.8197","112.9310"
"206","13.0147","111.2002"
"211","13.2097","109.3905"
"216","13.4047","109.2823"
"221","13.5997","110.5780"
"226","13.7947","112.2122"
"231","13.9897","116.0034"
"236","14.1847","107.8142"
"241","14.3797","108.5233"
"246","14.5747","107.5436"
"251","14.7697","107.0566"
"256","14.9647","104.7707"
"261","15.1597","103.6639"
"266","15.3547","103.3730"
"271","15.5497","102.2969"
"276","15.7447","103.8368"
"281","15.9397","102.4997"
"286","16.1347","105.6573"
"291","16.3297","101.0095"
"296","16.5247","102.1650"
"301","16.7197","101.5313"
"306","16.9147","101.5808"
"311","17.1097","102.0202"
"316","17.3047","101.4471"
"321","17.4997","98.8791"
"326","17.6947","98.2138"
"331","17.8897","98.9202"
"336","18.0847","97.6742"
"341","18.2797","98.4017"
"346","18.4747","99.1469"
"351","18.6697","97.9997"
"356","18.8647","98.8878"
"361","19.0597","100.0671"
"366","19.2547","97.8475"
"371","19.4497","99.1315"
"376","19.6447","98.1782"
"381","19.8397","104.9200"
"386","20.0347","97.4704"
"391","20.2297","98.6564"
"396","20.4247","97.7171"
"401","20.6197","98.3931"
"406","20.8147","97.4567"
"411","21.0097","97.9063"
"416","21.2047","98.5667"
"421","21.3997","105.2650"
"426","21.5947","127.5882"
"431","21.7897","113.2406"
"436","21.9847","104.1156"
"441","22.1797","105.2751"
"446","22.3747","102.2113"
"451","22.5697","103.4277"
"456","22.7647","106.1416"
"461","22.9597","103.2406"
"466","23.1547","103.2146"
"471","23.3497","102.1190"
"476","23.5447","99.7135"
"481","23.7397","101.5894"
"486","23.9347","104.6060"
"491","24.1297","109.4415"
"496","24.3247","120.0083"
"501","24.5197","109.1131"
"506","24.7147","107.4051"
"511","24.9097","103.7897"
"516","25.1047","103.2146"
"521","25.2997","105.5367"
"526","25.4947","105.4776"
"531","25.6897","112.2290"
"536","25.8847","137.4449"
"541","26.0797","109.2455"
"546","26.2747","100.2756"
"551","26.4697","101.5564"
"556","26.6647","101.1794"
"561","26.8597","98.2947"
"566","27.0547","100.8063"
"571","27.2497","97.8410"
"576","27.4447","99.5124"
"581","27.6397","98.5344"
"586","27.8347","97.8127"
"591","28.0297","98.8847"
"596","28.2247","102.8350"
"601","28.4197","98.0744"
"606","28.6147","96.6701"
"611","28.8097","100.7400"
"616","29.0047","100.8994"
"621","29.1997","98.3094"
"626","29.3947","101.8194"
"631","29.5897","109.3598"
"636","29.7847","112.2694"
"641","29.9797","147.1347"
"646","30.1747","106.0226"
"651","30.3697","96.1421"
"656","30.5647","94.3255"
"661","30.7597","94.0330"
"666","30.9547","94.8172"
"671","31.1497","92.7479"
"676","31.3447","91.4145"
"681","31.5397","91.9535"
"686","31.7347","92.3579"
"691","31.9297","93.4741"
"696","32.1247","92.7658"
"701","32.3197","89.2766"
"706","32.5147","94.9399"
"711","32.7097","97.4120"
"716","32.9047","100.2148"
"721","33.0997","93.0021"
"726","33.2947","89.0093"
"731","33.4897","90.0610"
"736","33.6847","87.3144"
"741","33.8797","88.3494"
"746","34.0747","86.4673"
"751","34.2697","89.7678"
"756","34.4647","87.9188"
"761","34.6597","102.9229"
"766","34.8547","98.0256"
"771","35.0497","88.1291"
"776","35.2447","89.2495"
"781","35.4397","91.5362"
"786","35.6347","91.0460"
"791","35.8297","96.1872"
"796","36.0247","88.9024"
"801","36.2197","87.5123"
"806","36.4147","87.7574"
"811","36.6097","85.4953"
"816","36.8047","83.9322"
"821","36.9997","84.7148"
"826","37.1947","84.2297"
"831","37.3897","82.2984"
"836","37.5847","86.5395"
"841","37.7797","85.1616"
"846","37.9747","85.2691"
"851","38.1697","85.3201"
"856","38.3647","84.1425"
"861","38.5597","96.2615"
"866","38.7547","96.3513"
"871","38.9497","84.4882"
"876","39.1447","82.5326"
"881","39.3397","84.3918"
"886","39.5347","84.0551"
"891","39.7297","82.9575"
"896","39.9247","85.2217"
"901","40.1197","84.8281"
"906","40.3147","88.6800"
"911","40.5097","86.7184"
"916","40.7047","83.8009"
"921","40.8997","86.9701"
"926","41.0947","86.6363"
"931","41.2897","87.0864"
"936","41.4847","89.8899"
"941","41.6797","96.3286"
"946","41.8747","87.5946"
"951","42.0697","84.2475"
"956","42.2647","84.3678"
"961","42.4597","84.7451"
"966","42.6547","87.3099"
"971","42.8497","94.0887"
"976","43.0447","88.6367"
"981","43.2397","83.6933"
"986","43.4347","85.8624"
"991","43.6297","89.8850"
"996","43.8247","102.2582"
"1001","44.0197","90.7165"
"1006","44.2147","86.5160"
"1011","44.4097","82.0901"
"1016","44.6047","84.1743"
"1021","44.7997","85.9135"
"1026","44.9947","82.9996"
"1031","45.1897","81.7101"
"1036","45.3847","84.5105"
"1041","45.5797","82.2708"
"1046","45.7747","79.6712"
"1051","45.9697","81.5494"
"1056","46.1647","84.4777"
"1061","46.3597","81.8859"
"1066","46.5547","79.8575"
"1071","46.7497","78.0835"
"1076","46.9447","79.0815"
"1081","47.1397","78.6665"
"1086","47.3347","78.6434"
"1091","47.5297","77.3735"
"1096","47.7247","76.2712"
"1101","47.9197","77.7630"
"1106","48.1147","77.0973"
"1111","48.3097","73.7967"
"1116","48.5047","80.2692"
"1121","48.6997","76.7896"
"1126","48.8947","76.2098"
"1131","49.0897","77.2770"
"1136","49.2847","78.2383"
"1141","49.4797","78.2922"
"1146","49.6747","76.8393"
"1151","49.8697","78.1024"
"1156","50.0647","78.1713"
"1161","50.2597","78.3178"
"1166","50.4547","80.0666"
"1171","50.6497","88.2453"
"1176","50.8447","90.7533"
"1181","51.0397","88.6243"
"1186","51.2347","82.8939"
"1191","51.4297","81.5476"
"1196","51.6247","76.2024"
"1201","51.8197","77.7340"
"1206","52.0147","80.3318"
"1211","52.2097","82.1799"
"1216","52.4047","76.4913"
"1221","52.5997","79.0814"
"1226","52.7947","80.0192"
"1231","52.9897","79.5918"
"1236","53.1847","80.3396"
"1241","53.3797","79.9853"
"1246","53.5747","78.0024"
"1251","53.7697","76.6872"
"1256","53.9647","76.0595"
"1261","54.1597","76.0962"
"1266","54.3547","75.4206"
"1271","54.5497","74.2558"
"1276","54.7447","75.8840"
"1281","54.9397","77.7653"
"1286","55.1347","76.5586"
"1291","55.3297","75.3562"
"1296","55.5247","76.3710"
"1301","55.7197","76.6921"
"1306","55.9147","72.8520"
"1311","56.1097","78.6572"
"1316","56.3047","80.2253"
"1321","56.4997","80.5935"
"1326","56.6947","76.1252"
"1331","56.8897","78.3557"
"1336","57.0847","78.5402"
"1341","57.2797","75.8119"
"1346","57.4747","74.1661"
"1351","57.6697","77.9336"
"1356","57.8647","73.2789"
"1361","58.0597","76.4149"
"1366","58.2547","76.6451"
"1371","58.4497","77.1605"
"1376","58.6447","76.5081"
"1381","58.8397","78.3909"
"1386","59.0347","81.6893"
"1391","59.2297","84.4067"
"1396","59.4247","82.7254"
"1401","59.6197","76.6683"
"1406","59.8147","74.9352"
"1409","59.9317","77.0881"