Folder: XRD/mof-801_xrd

File: 5L-0.csv
"No.","Pos. [°2θ]","Iobs [cps]"
"1","5.0197","178.7530"
"6","5.2147","169.2554"
"11","5.4097","163.2180"
"16","5.6047","153.8390"
"21","5.7997","150.0785"
"26","5.9947","145.2993"
"31","6.1897","142.1619"
"36","6.3847","140.2606"
"41","6.5797","138.5704"
"46","6.7747","135.0745"
"51","6.9697","136.5621"
"56","7.1647","134.3590"
"61","7.3597","135.4212"
"66","7.5547","137.7747"
"71","7.7497","142.2902"
"76","7.9447","155.9185"
"81","8.1397","195.1788"
"86","8.3347","314.4229"
"91","8.5297","569.7476"
"96","8.7247","195.4571"
"101","8.9197","165.6984"
"106","9.1147","160.6912"
"111","9.3097","161.0402"
"116","9.5047","176.9143"
"121","9.6997","238.3863"
"126","9.8947","283.1477"
"131","10.0897","150.4500"
"136","10.2847","139.8908"
"141","10.4797","134.3755"
"146","10.6747","132.1996"
"151","10.8697","126.6139"
"156","11.0647","123.9431"
"161","11.2597","124.6299"
"166","11.4547","122.1882"
"171","11.6497","119.1551"
"176","11.8447","116.4123"
"181","12.0397","116.0358"
"186","12.2347","116.4342"
"191","12.4297","115.5171"
"196","12.6247","115.0162"
"201","12.8197","110.9476"
"206","13.0147","111.7284"
"211","13.2097","112.4461"
"216","13.4047","113.0782"
"221","13.5997","111.9748"
"226","13.7947","113.2242"
"231","13.9897","119.0971"
"236","14.1847","108.5928"
"241","14.3797","105.9930"
"246","14.5747","104.4533"
"251","14.7697","105.7792"
"256","14.9647","106.0861"
"261","15.1597","106.0160"
"266","15.3547","105.0580"
"271","15.5497","103.3943"
"276","15.7447","103.7212"
"281","15.9397","100.0047"
"286","16.1347","102.8591"
"291","16.3297","102.2138"
"296","16.5247","99.1867"
"301","16.7197","99.1395"
"306","16.9147","97.2497"
"311","17.1097","101.1685"
"316","17.3047","96.1692"
"321","17.4997","97.9649"
"326","17.6947","98.3841"
"331","17.8897","97.9828"
"336","18.0847","97.7625"
"341","18.2797","95.8541"
"346","18.4747","98.0944"
"351","18.6697","97.4601"
"356","18.8647","96.9104"
"361","19.0597","94.1584"
"366","19.2547","96.1152"
"371","19.4497","97.8263"
"376","19.6447","100.8968"
"381","19.8397","115.5751"
"386","20.0347","100.2781"
"391","20.2297","99.4748"
"396","20.4247","96.7060"
"401","20.6197","100.6708"
"406","20.8147","100.3032"
"411","21.0097","99.5044"
"416","21.2047","99.4123"
"421","21.3997","104.1483"
"426","21.5947","147.5486"
"431","21.7897","111.0772"
"436","21.9847","102.9328"
"441","22.1797","105.8008"
"446","22.3747","99.0359"
"451","22.5697","100.4674"
"456","22.7647","104.5174"
"461","22.9597","99.5398"
"466","23.1547","97.5433"
"471","23.3497","98.5943"
"476","23.5447","99.6587"
"481","23.7397","98.9765"
"486","23.9347","98.2080"
"491","24.1297","103.3476"
"496","24.3247","128.2248"
"501","24.5197","105.9970"
"506","24.7147","98.4685"
"511","24.9097","101.6422"
"516","25.1047","99.1820"
"521","25.2997","105.1685"
"526","25.4947","105.3013"
"531","25.6897","113.7074"
"536","25.8847","160.6418"
"541","26.0797","107.1578"
"546","26.2747","100.8452"
"551","26.4697","100.6173"
"556","26.6647","99.8049"
"561","26.8597","97.5583"
"566","27.0547","97.3332"
"571","27.2497","98.2177"
"576","27.4447","99.7244"
"581","27.6397","95.3475"
"586","27.8347","94.7407"
"591","28.0297","98.0768"
"596","28.2247","104.0588"
"601","28.4197","96.9974"
"606","28.6147","94.6995"
"611","28.8097","94.1951"
"616","29.0047","95.6322"
"621","29.1997","95.6629"
"626","29.3947","102.8442"
"631","29.5897","114.1274"
"636","29.7847","116.0675"
"641","29.9797","175.7168"
"646","30.1747","104.7534"
"651","30.3697","95.1778"
"656","30.5647","97.0605"
"661","30.7597","93.8889"
"666","30.9547","93.2963"
"671","31.1497","92.8236"
"676","31.3447","91.3267"
"681","31.5397","91.1464"
"686","31.7347","90.0048"
"691","31.9297","94.8085"
"696","32.1247","93.2142"
"701","32.3197","88.4546"
"706","32.5147","93.6142"
"711","32.7097","100.2040"
"716","32.9047","105.0523"
"721","33.0997","89.5010"
"726","33.2947","91.0355"
"731","33.4897","88.8244"
"736","33.6847","88.7687"
"741","33.8797","87.7497"
"746","34.0747","88.7993"
"751","34.2697","85.6072"
"756","34.4647","89.7678"
"761","34.6597","106.7796"
"766","34.8547","103.7394"
"771","35.0497","89.9607"
"776","35.2447","89.2522"
"781","35.4397","90.4305"
"786","35.6347","91.0392"
"791","35.8297","101.5644"
"796","36.0247","91.6742"
"801","36.2197","84.9427"
"806","36.4147","85.6366"
"811","36.6097","86.1177"
"816","36.8047","84.9146"
"821","36.9997","84.8211"
"826","37.1947","84.1359"
"831","37.3897","83.5390"
"836","37.5847","85.3377"
"841","37.7797","86.4122"
"846","37.9747","83.2983"
"851","38.1697","85.5503"
"856","38.3647","87.0525"
"861","38.5597","99.7736"
"866","38.7547","103.6446"
"871","38.9497","88.5801"
"876","39.1447","84.2394"
"881","39.3397","86.4959"
"886","39.5347","84.7807"
"891","39.7297","84.8216"
"896","39.9247","83.8832"
"901","40.1197","87.6270"
"906","40.3147","90.6888"
"911","40.5097","91.1183"
"916","40.7047","86.7118"
"921","40.8997","84.0641"
"926","41.0947","84.6015"
"931","41.2897","88.5992"
"936","41.4847","90.7843"
"941","41.6797","108.8957"
"946","41.8747","89.5286"
"951","42.0697","87.1218"
"956","42.2647","84.7354"
"961","42.4597","88.9621"
"966","42.6547","85.9804"
"971","42.8497","98.8484"
"976","43.0447","92.9275"
"981","43.2397","87.8180"
"986","43.4347","86.6723"
"991","43.6297","90.8303"
"996","43.8247","118.4669"
"1001","44.0197","97.9617"
"1006","44.2147","92.0824"
"1011","44.4097","84.4155"
"1016","44.6047","85.4524"
"1021","44.7997","86.1539"
"1026","44.9947","83.4286"
"1031","45.1897","85.1418"
"1036","45.3847","87.0532"
"1041","45.5797","84.9965"
"1046","45.7747","85.7411"
"1051","45.9697","84.7331"
"1056","46.1647","82.6639"
"1061","46.3597","83.6234"
"1066","46.5547","80.1674"
"1071","46.7497","80.7516"
"1076","46.9447","81.4735"
"1081","47.1397","82.3404"
"1086","47.3347","80.3776"
"1091","47.5297","77.5470"
"1096","47.7247","80.8383"
"1101","47.9197","80.9904"
"1106","48.1147","77.2874"
"1111","48.3097","78.6647"
"1116","48.5047","78.0784"
"1121","48.6997","79.5940"
"1126","48.8947","81.2934"
"1131","49.0897","76.6905"
"1136","49.2847","76.7310"
"1141","49.4797","80.3610"
"1146","49.6747","80.0625"
"1151","49.8697","78.0857"
"1156","50.0647","79.6768"
"1161","50.2597","79.4428"
"1166","50.4547","81.3980"
"1171","50.6497","86.4574"
"1176","50.8447","99.4998"
"1181","51.0397","95.6677"
"1186","51.2347","88.5822"
"1191","51.4297","81.1700"
"1196","51.6247","78.0105"
"1201","51.8197","77.2079"
"1206","52.0147","81.9151"
"1211","52.2097","85.7838"
"1216","52.4047","81.5068"
"1221","52.5997","79.9068"
"1226","52.7947","82.0533"
"1231","52.9897","83.1246"
"1236","53.1847","85.5216"
"1241","53.3797","83.3626"
"1246","53.5747","78.7498"
"1251","53.7697","79.5320"
"1256","53.9647","78.3560"
"1261","54.1597","76.9292"
"1266","54.3547","76.9894"
"1271","54.5497","76.4467"
"1276","54.7447","76.6794"
"1281","54.9397","77.9351"
"1286","55.1347","79.8418"
"1291","55.3297","77.4482"
"1296","55.5247","77.7654"
"1301","55.7197","76.2767"
"1306","55.9147","75.6970"
"1311","56.1097","76.3814"
"1316","56.3047","85.9655"
"1321","56.4997","82.8722"
"1326","56.6947","77.3959"
"1331","56.8897","81.2922"
"1336","57.0847","81.6225"
"1341","57.2797","81.3030"
"1346","57.4747","78.1413"
"1351","57.6697","79.2939"
"1356","57.8647","78.4632"
"1361","58.0597","76.4703"
"1366","58.2547","78.5502"
"1371","58.4497","78.6585"
"1376","58.6447","79.6327"
"1381","58.8397","80.5026"
"1386","59.0347","87.7237"
"1391","59.2297","87.9323"
"1396","59.4247","86.7976"
"1401","59.6197","78.3613"
"1406","59.8147","77.6983"
"1409","59.9317","78.6388"

File: 5L-1.csv
"No.","Pos. [°2θ]","Iobs [cps]"
"1","5.0197","174.6447"
"6","5.2147","168.2177"
"11","5.4097","156.2226"
"16","5.6047","150.5446"
"21","5.7997","146.9894"
"26","5.9947","140.4184"
"31","6.1897","141.3957"
"36","6.3847","137.3289"
"41","6.5797","136.6247"
"46","6.7747","132.7142"
"51","6.9697","132.0855"
"56","7.1647","133.7603"
"61","7.3597","130.8852"
"66","7.5547","129.7333"
"71","7.7497","133.2440"
"76","7.9447","144.4153"
"81","8.1397","170.7216"
"86","8.3347","267.3265"
"91","8.5297","563.3324"
"96","8.7247","226.5148"
"101","8.9197","164.5853"
"106","9.1147","152.8274"
"111","9.3097","155.9588"
"116","9.5047","161.3879"
"121","9.6997","206.3686"
"126","9.8947","333.7801"
"131","10.0897","160.6777"
"136","10.2847","137.9969"
"141","10.4797","134.1373"
"146","10.6747","130.4405"
"151","10.8697","127.2109"
"156","11.0647","128.8562"
"161","11.2597","126.5140"
"166","11.4547","124.4301"
"171","11.6497","121.2112"
"176","11.8447","120.5892"
"181","12.0397","121.6966"
"186","12.2347","120.4792"
"191","12.4297","116.3610"
"196","12.6247","117.1014"
"201","12.8197","118.7706"
"206","13.0147","116.5822"
"211","13.2097","114.9969"
"216","13.4047","114.5514"
"221","13.5997","114.7081"
"226","13.7947","118.1177"
"231","13.9897","126.3895"
"236","14.1847","113.2306"
"241","14.3797","114.5166"
"246","14.5747","111.3776"
"251","14.7697","112.4101"
"256","14.9647","112.1905"
"261","15.1597","109.6013"
"266","15.3547","109.5278"
"271","15.5497","107.9565"
"276","15.7447","107.7869"
"281","15.9397","106.6112"
"286","16.1347","107.2943"
"291","16.3297","109.2114"
"296","16.5247","108.3322"
"301","16.7197","102.8312"
"306","16.9147","106.0997"
"311","17.1097","104.2834"
"316","17.3047","103.0555"
"321","17.4997","103.0818"
"326","17.6947","103.7692"
"331","17.8897","99.8909"
"336","18.0847","103.5315"
"341","18.2797","100.8009"
"346","18.4747","100.5718"
"351","18.6697","100.9005"
"356","18.8647","100.5690"
"361","19.0597","101.7311"
"366","19.2547","100.9772"
"371","19.4497","99.0695"
"376","19.6447","100.3055"
"381","19.8397","116.6532"
"386","20.0347","108.5707"
"391","20.2297","98.7689"
"396","20.4247","102.4606"
"401","20.6197","102.1718"
"406","20.8147","100.6567"
"411","21.0097","101.1742"
"416","21.2047","101.0453"
"421","21.3997","104.7016"
"426","21.5947","127.1405"
"431","21.7897","146.9389"
"436","21.9847","103.6319"
"441","22.1797","106.3991"
"446","22.3747","105.3101"
"451","22.5697","103.5305"
"456","22.7647","107.9655"
"461","22.9597","106.2284"
"466","23.1547","99.8974"
"471","23.3497","102.5017"
"476","23.5447","104.8578"
"481","23.7397","102.3272"
"486","23.9347","104.2983"
"491","24.1297","101.6027"
"496","24.3247","115.7565"
"501","24.5197","131.2955"
"506","24.7147","105.5089"
"511","24.9097","104.5079"
"516","25.1047","103.4491"
"521","25.2997","107.3268"
"526","25.4947","114.0401"
"531","25.6897","110.9935"
"536","25.8847","147.5091"
"541","26.0797","130.9772"
"546","26.2747","106.7989"
"551","26.4697","104.6473"
"556","26.6647","102.9647"
"561","26.8597","102.5315"
"566","27.0547","101.9469"
"571","27.2497","100.9663"
"576","27.4447","100.0609"
"581","27.6397","100.7649"
"586","27.8347","98.5541"
"591","28.0297","100.3860"
"596","28.2247","102.4943"
"601","28.4197","100.6384"
"606","28.6147","94.5207"
"611","28.8097","97.8853"
"616","29.0047","97.1444"
"621","29.1997","100.9485"
"626","29.3947","100.4103"
"631","29.5897","117.4625"
"636","29.7847","106.9437"
"641","29.9797","147.2961"
"646","30.1747","144.4350"
"651","30.3697","97.5542"
"656","30.5647","95.6730"
"661","30.7597","96.1920"
"666","30.9547","95.3042"
"671","31.1497","92.9945"
"676","31.3447","94.4170"
"681","31.5397","91.0332"
"686","31.7347","94.0397"
"691","31.9297","93.2778"
"696","32.1247","99.0838"
"701","32.3197","95.8664"
"706","32.5147","90.3827"
"711","32.7097","92.1758"
"716","32.9047","116.4816"
"721","33.0997","97.2798"
"726","33.2947","91.0014"
"731","33.4897","91.8453"
"736","33.6847","90.6019"
"741","33.8797","88.6453"
"746","34.0747","89.8028"
"751","34.2697","87.1823"
"756","34.4647","88.8407"
"761","34.6597","95.5299"
"766","34.8547","124.7552"
"771","35.0497","97.7985"
"776","35.2447","90.0831"
"781","35.4397","91.5029"
"786","35.6347","94.7639"
"791","35.8297","96.5334"
"796","36.0247","105.2773"
"801","36.2197","90.0039"
"806","36.4147","88.5371"
"811","36.6097","86.5220"
"816","36.8047","88.0760"
"821","36.9997","85.3717"
"826","37.1947","85.6723"
"831","37.3897","87.4133"
"836","37.5847","85.7911"
"841","37.7797","87.1528"
"846","37.9747","84.1268"
"851","38.1697","86.7542"
"856","38.3647","87.2161"
"861","38.5597","89.7364"
"866","38.7547","113.7232"
"871","38.9497","97.5609"
"876","39.1447","86.2239"
"881","39.3397","87.3733"
"886","39.5347","87.6855"
"891","39.7297","86.4520"
"896","39.9247","89.1918"
"901","40.1197","86.6287"
"906","40.3147","85.3251"
"911","40.5097","93.8724"
"916","40.7047","91.2049"
"921","40.8997","89.3996"
"926","41.0947","87.3656"
"931","41.2897","86.0577"
"936","41.4847","88.5400"
"941","41.6797","100.7404"
"946","41.8747","105.2896"
"951","42.0697","89.0979"
"956","42.2647","86.4264"
"961","42.4597","86.7307"
"966","42.6547","85.5281"
"971","42.8497","87.6375"
"976","43.0447","103.4973"
"981","43.2397","87.8783"
"986","43.4347","85.3776"
"991","43.6297","87.2048"
"996","43.8247","94.1825"
"1001","44.0197","122.8529"
"1006","44.2147","95.1400"
"1011","44.4097","94.9057"
"1016","44.6047","87.7438"
"1021","44.7997","85.4835"
"1026","44.9947","81.2443"
"1031","45.1897","81.9844"
"1036","45.3847","85.5972"
"1041","45.5797","87.4479"
"1046","45.7747","85.0517"
"1051","45.9697","83.0118"
"1056","46.1647","84.3914"
"1061","46.3597","87.3771"
"1066","46.5547","82.5057"
"1071","46.7497","81.8367"
"1076","46.9447","80.9147"
"1081","47.1397","80.3410"
"1086","47.3347","83.8553"
"1091","47.5297","80.8132"
"1096","47.7247","81.9307"
"1101","47.9197","82.1463"
"1106","48.1147","81.7480"
"1111","48.3097","81.6915"
"1116","48.5047","81.1379"
"1121","48.6997","78.5131"
"1126","48.8947","80.5979"
"1131","49.0897","77.4669"
"1136","49.2847","77.1857"
"1141","49.4797","81.4805"
"1146","49.6747","78.8177"
"1151","49.8697","80.1357"
"1156","50.0647","79.9240"
"1161","50.2597","80.0607"
"1166","50.4547","81.8288"
"1171","50.6497","83.3872"
"1176","50.8447","92.2792"
"1181","51.0397","101.0712"
"1186","51.2347","97.2414"
"1191","51.4297","86.0836"
"1196","51.6247","82.0742"
"1201","51.8197","78.5732"
"1206","52.0147","79.9001"
"1211","52.2097","84.8456"
"1216","52.4047","87.8411"
"1221","52.5997","83.5313"
"1226","52.7947","84.2544"
"1231","52.9897","82.5527"
"1236","53.1847","85.4482"
"1241","53.3797","84.9841"
"1246","53.5747","83.8511"
"1251","53.7697","81.4186"
"1256","53.9647","80.8093"
"1261","54.1597","77.9463"
"1266","54.3547","79.3759"
"1271","54.5497","79.2478"
"1276","54.7447","77.4454"
"1281","54.9397","79.2133"
"1286","55.1347","78.8877"
"1291","55.3297","81.6971"
"1296","55.5247","81.3585"
"1301","55.7197","80.8145"
"1306","55.9147","80.0954"
"1311","56.1097","78.0176"
"1316","56.3047","81.0733"
"1321","56.4997","87.0208"
"1326","56.6947","87.3902"
"1331","56.8897","81.4548"
"1336","57.0847","81.7315"
"1341","57.2797","84.0173"
"1346","57.4747","80.9499"
"1351","57.6697","80.0659"
"1356","57.8647","82.6569"
"1361","58.0597","79.9179"
"1366","58.2547","79.9952"
"1371","58.4497","82.0295"
"1376","58.6447","83.0308"
"1381","58.8397","80.1328"
"1386","59.0347","82.0287"
"1391","59.2297","87.4585"
"1396","59.4247","87.6483"
"1401","59.6197","89.0939"
"1406","59.8147","81.0455"
"1409","59.9317","80.3823"

File: 5L-2.csv
"No.","Pos. [°2θ]","Iobs [cps]"
"1","5.0197","167.1128"
"6","5.2147","159.2189"
"11","5.4097","154.6347"
"16","5.6047","147.6516"
"21","5.7997","142.6877"
"26","5.9947","141.0520"
"31","6.1897","137.3290"
"36","6.3847","135.6235"
"41","6.5797","134.9507"
"46","6.7747","133.1905"
"51","6.9697","136.2726"
"56","7.1647","133.0040"
"61","7.3597","132.5219"
"66","7.5547","132.3758"
"71","7.7497","136.1486"
"76","7.9447","146.3710"
"81","8.1397","171.7016"
"86","8.3347","250.5785"
"91","8.5297","459.7985"
"96","8.7247","222.0022"
"101","8.9197","168.2262"
"106","9.1147","161.7312"
"111","9.3097","156.1822"
"116","9.5047","165.1723"
"121","9.6997","201.3916"
"126","9.8947","282.4716"
"131","10.0897","159.1849"
"136","10.2847","141.7354"
"141","10.4797","140.1310"
"146","10.6747","133.6250"
"151","10.8697","128.1759"
"156","11.0647","127.0482"
"161","11.2597","127.5108"
"166","11.4547","119.9190"
"171","11.6497","122.6819"
"176","11.8447","120.7122"
"181","12.0397","117.0304"
"186","12.2347","116.4837"
"191","12.4297","112.7159"
"196","12.6247","114.3933"
"201","12.8197","111.6037"
"206","13.0147","112.0102"
"211","13.2097","106.5687"
"216","13.4047","108.7830"
"221","13.5997","110.3495"
"226","13.7947","110.2981"
"231","13.9897","115.6126"
"236","14.1847","107.2608"
"241","14.3797","107.0237"
"246","14.5747","105.8943"
"251","14.7697","105.2362"
"256","14.9647","103.6196"
"261","15.1597","102.1172"
"266","15.3547","101.8466"
"271","15.5497","99.4899"
"276","15.7447","100.3252"
"281","15.9397","100.2311"
"286","16.1347","98.9555"
"291","16.3297","98.4196"
"296","16.5247","99.2820"
"301","16.7197","96.4512"
"306","16.9147","97.1350"
"311","17.1097","99.0494"
"316","17.3047","95.5227"
"321","17.4997","96.1430"
"326","17.6947","96.7716"
"331","17.8897","96.5209"
"336","18.0847","95.6394"
"341","18.2797","96.8036"
"346","18.4747","93.6853"
"351","18.6697","95.0531"
"356","18.8647","94.5844"
"361","19.0597","95.1061"
"366","19.2547","93.6068"
"371","19.4497","95.0170"
"376","19.6447","92.4220"
"381","19.8397","107.9494"
"386","20.0347","98.3906"
"391","20.2297","96.4586"
"396","20.4247","95.7198"
"401","20.6197","96.6170"
"406","20.8147","99.3664"
"411","21.0097","94.5241"
"416","21.2047","96.2450"
"421","21.3997","100.9420"
"426","21.5947","124.5126"
"431","21.7897","118.6919"
"436","21.9847","100.5813"
"441","22.1797","102.4198"
"446","22.3747","100.4820"
"451","22.5697","99.7304"
"456","22.7647","100.6183"
"461","22.9597","99.4579"
"466","23.1547","96.1944"
"471","23.3497","97.6035"
"476","23.5447","97.8321"
"481","23.7397","99.1200"
"486","23.9347","99.6217"
"491","24.1297","100.8092"
"496","24.3247","113.3266"
"501","24.5197","111.0206"
"506","24.7147","99.6621"
"511","24.9097","101.1441"
"516","25.1047","102.0974"
"521","25.2997","102.1462"
"526","25.4947","105.1119"
"531","25.6897","106.4646"
"536","25.8847","139.0397"
"541","26.0797","110.5524"
"546","26.2747","100.4466"
"551","26.4697","101.1390"
"556","26.6647","98.1814"
"561","26.8597","98.8812"
"566","27.0547","96.9345"
"571","27.2497","97.1104"
"576","27.4447","98.0746"
"581","27.6397","98.8938"
"586","27.8347","96.8832"
"591","28.0297","97.1224"
"596","28.2247","99.4638"
"601","28.4197","96.1253"
"606","28.6147","93.5874"
"611","28.8097","93.3216"
"616","29.0047","92.8841"
"621","29.1997","95.7222"
"626","29.3947","96.9309"
"631","29.5897","110.5009"
"636","29.7847","108.0199"
"641","29.9797","146.3603"
"646","30.1747","112.9022"
"651","30.3697","98.4422"
"656","30.5647","92.5305"
"661","30.7597","92.6453"
"666","30.9547","93.2013"
"671","31.1497","92.4344"
"676","31.3447","92.2352"
"681","31.5397","89.1900"
"686","31.7347","92.2870"
"691","31.9297","90.3953"
"696","32.1247","93.3748"
"701","32.3197","89.8615"
"706","32.5147","89.4828"
"711","32.7097","90.7136"
"716","32.9047","105.3383"
"721","33.0997","92.5024"
"726","33.2947","90.0074"
"731","33.4897","88.3859"
"736","33.6847","88.4368"
"741","33.8797","88.8195"
"746","34.0747","88.7026"
"751","34.2697","86.2569"
"756","34.4647","86.0485"
"761","34.6597","96.9590"
"766","34.8547","109.9267"
"771","35.0497","89.5001"
"776","35.2447","87.2800"
"781","35.4397","89.0169"
"786","35.6347","89.7023"
"791","35.8297","94.6416"
"796","36.0247","89.2384"
"801","36.2197","85.2639"
"806","36.4147","86.5963"
"811","36.6097","83.8891"
"816","36.8047","85.0821"
"821","36.9997","85.9258"
"826","37.1947","87.3127"
"831","37.3897","83.4581"
"836","37.5847","86.1847"
"841","37.7797","86.5713"
"846","37.9747","83.7172"
"851","38.1697","83.8025"
"856","38.3647","86.7890"
"861","38.5597","88.1703"
"866","38.7547","102.4019"
"871","38.9497","89.1792"
"876","39.1447","84.5519"
"881","39.3397","84.7990"
"886","39.5347","84.8630"
"891","39.7297","85.7679"
"896","39.9247","82.9928"
"901","40.1197","82.0134"
"906","40.3147","86.6803"
"911","40.5097","85.5711"
"916","40.7047","87.0446"
"921","40.8997","84.9953"
"926","41.0947","86.4004"
"931","41.2897","85.4080"
"936","41.4847","88.4217"
"941","41.6797","101.5893"
"946","41.8747","91.3541"
"951","42.0697","85.1428"
"956","42.2647","87.4684"
"961","42.4597","85.6810"
"966","42.6547","85.4856"
"971","42.8497","89.2189"
"976","43.0447","94.8571"
"981","43.2397","83.9024"
"986","43.4347","85.2529"
"991","43.6297","89.4617"
"996","43.8247","101.7225"
"1001","44.0197","104.2317"
"1006","44.2147","94.6240"
"1011","44.4097","82.8355"
"1016","44.6047","84.0233"
"1021","44.7997","83.5189"
"1026","44.9947","83.7548"
"1031","45.1897","81.5278"
"1036","45.3847","84.2994"
"1041","45.5797","85.7518"
"1046","45.7747","82.7328"
"1051","45.9697","82.8666"
"1056","46.1647","86.3867"
"1061","46.3597","84.8165"
"1066","46.5547","80.1607"
"1071","46.7497","81.0886"
"1076","46.9447","79.9454"
"1081","47.1397","81.2348"
"1086","47.3347","79.2885"
"1091","47.5297","80.5798"
"1096","47.7247","78.0611"
"1101","47.9197","79.7687"
"1106","48.1147","81.6845"
"1111","48.3097","81.4877"
"1116","48.5047","78.9089"
"1121","48.6997","78.7574"
"1126","48.8947","81.9487"
"1131","49.0897","79.7027"
"1136","49.2847","79.2329"
"1141","49.4797","79.7163"
"1146","49.6747","80.5194"
"1151","49.8697","79.0766"
"1156","50.0647","80.1935"
"1161","50.2597","79.5852"
"1166","50.4547","81.6098"
"1171","50.6497","83.9615"
"1176","50.8447","95.7929"
"1181","51.0397","95.6841"
"1186","51.2347","90.5016"
"1191","51.4297","82.5109"
"1196","51.6247","81.9765"
"1201","51.8197","80.4694"
"1206","52.0147","81.9385"
"1211","52.2097","86.4559"
"1216","52.4047","84.3207"
"1221","52.5997","80.8536"
"1226","52.7947","80.2951"
"1231","52.9897","81.3864"
"1236","53.1847","82.2551"
"1241","53.3797","82.3477"
"1246","53.5747","79.1482"
"1251","53.7697","78.7562"
"1256","53.9647","79.2326"
"1261","54.1597","78.9256"
"1266","54.3547","78.9243"
"1271","54.5497","79.2121"
"1276","54.7447","78.5146"
"1281","54.9397","79.7277"
"1286","55.1347","80.4026"
"1291","55.3297","83.2110"
"1296","55.5247","78.4089"
"1301","55.7197","81.6711"
"1306","55.9147","80.9154"
"1311","56.1097","78.5366"
"1316","56.3047","80.3979"
"1321","56.4997","85.9892"
"1326","56.6947","80.3256"
"1331","56.8897","78.0790"
"1336","57.0847","81.3353"
"1341","57.2797","81.9593"
"1346","57.4747","79.2598"
"1351","57.6697","79.1860"
"1356","57.8647","78.2508"
"1361","58.0597","78.2962"
"1366","58.2547","79.2931"
"1371","58.4497","80.8478"
"1376","58.6447","78.9364"
"1381","58.8397","78.7070"
"1386","59.0347","82.3358"
"1391","59.2297","89.0584"
"1396","59.4247","90.0632"
"1401","59.6197","82.5540"
"1406","59.8147","77.4448"
"1409","59.9317","79.3870"