Folder: XRD/mof-801_xrd (part 3)

File: 5L-all.csv
angle,5L-0,5L-1,5L-2,5L-3,5L-4,5L-5
5.0197,178.753,174.6447,167.1128,175.1426,169.4367,149.8703
5.3707,161.385,159.8484,154.1454,158.705,156.6541,137.8997
5.7217,150.0971,149.1686,144.4955,148.7507,143.1017,131.9423
6.0727,144.1189,140.3168,139.1285,143.0502,136.7309,127.3149
6.4237,137.9191,136.5777,134.6006,137.2282,133.7735,123.719
6.7747,135.0745,132.7142,133.1905,137.4338,131.0193,121.8272
7.1257,137.9272,134.3062,131.1532,132.5026,129.0646,122.8949
7.4767,135.2732,132.148,131.837,126.8161,128.063,125.2436
7.8277,145.7619,136.4102,136.5581,132.3522,133.7955,134.0328
8.1787,211.8662,188.1471,180.2124,217.3142,187.1553,176.1374
8.5297,569.7476,563.3324,459.7985,792.3782,666.049,405.1775
8.8807,167.5977,167.3544,176.0184,133.9014,148.798,193.5269
9.2317,162.3947,151.3791,156.5001,127.9166,132.6258,180.8973
9.5827,189.8591,171.0249,172.063,178.4446,164.1513,176.3938
9.9337,225.585,317.7092,259.6027,248.7125,334.1684,239.7951
10.2847,139.8908,137.9969,141.7354,123.6843,127.3581,139.5604
10.6357,134.1721,131.6572,136.4898,117.9562,119.702,133.2445
10.9867,127.4528,128.381,128.193,115.3544,119.0527,126.3173
11.3377,122.2805,123.2796,124.8118,112.7017,115.5337,123.5948
11.6887,118.1454,120.1568,120.5177,112.6812,116.9724,118.2898
12.0397,116.0358,121.6966,117.0304,110.1922,115.0819,117.6004
12.3907,114.9469,121.6537,113.2355,109.4378,110.7742,113.0484
12.7417,114.5889,118.395,113.0907,108.6765,108.85,111.11
13.0927,111.039,116.4101,113.2705,107.0775,107.6385,112.6964
13.4437,114.3594,118.7481,109.0153,102.9106,106.7889,113.0479
13.7947,113.2242,118.1177,110.2981,110.6954,108.0794,112.2122
14.1457,109.5728,117.9564,107.4761,106.1635,109.7536,112.7741
14.4967,109.1877,113.7465,104.9076,103.4805,104.551,106.1804
14.8477,104.8981,109.6687,104.5136,101.4016,101.5452,107.2513
15.1987,106.3372,109.605,102.1821,98.4218,100.2871,104.3173
15.5497,103.3943,107.9565,99.4899,97.6373,98.122,102.2969
15.9007,99.9588,105.9727,99.9114,95.6273,97.5205,103.4692
16.2517,101.1645,102.2711,100.2168,98.0696,98.8607,102.0292
16.6027,102.6048,107.7882,98.1244,96.2739,94.6887,99.5812
16.9537,100.2911,104.5523,98.5083,92.773,100.068,99.9705
17.3047,96.1692,103.0555,95.5227,91.9123,93.9704,101.4471
17.6557,100.1109,102.3606,95.4928,92.138,93.1703,97.7676
18.0067,98.2501,97.905,96.1592,92.278,94.4002,97.77
18.3577,98.5828,101.2187,94.5921,89.9725,95.4071,97.8266
18.7087,96.4865,100.871,94.6542,90.7713,91.8875,98.1824
19.0597,94.1584,101.7311,95.1061,90.9137,92.5519,100.0671
19.4107,98.5335,100.2554,93.9191,90.7432,93.0631,97.4468
19.7617,111.7834,105.6826,101.0809,113.2204,100.2766,103.8059
20.1127,97.3777,101.9624,96.762,93.9847,93.3972,98.3802
20.4637,97.4309,99.7215,96.9197,90.9649,91.5466,95.6014
20.8147,100.3032,100.6567,99.3664,89.5083,92.0297,97.4567
21.1657,98.7358,100.1605,96.2054,90.7587,91.6395,100.6133
21.5167,123.9076,110.6231,108.8663,138.4941,110.08,116.654
21.8677,105.0474,116.9469,102.7277,95.2727,103.1008,106.4021
22.2187,106.5992,108.6239,102.4952,97.0675,99.2952,106.3868
22.5697,100.4674,103.5305,99.7304,93.0688,94.4151,103.4277
22.9207,102.1041,108.2078,102.9442,94.9428,96.0408,102.505
23.2717,97.167,100.0624,98.3916,92.6256,90.4136,101.237
23.6227,100.2162,100.0175,98.8848,91.8489,90.4978,101.7702
23.9737,99.3321,101.8861,100.951,94.2062,90.6392,103.4404
24.3247,128.2248,115.7565,113.3266,150.3681,118.0923,120.0083
24.6757,101.6918,105.5121,101.9808,96.1925,96.6061,102.4188
25.0267,99.2608,104.7875,100.9819,95.6606,93.7025,102.2743
25.3777,106.1743,108.5259,103.6169,101.1473,99.3964,102.568
25.7287,121.0176,114.8611,112.5748,146.1387,112.6045,116.1811
26.0797,107.1578,130.9772,110.5524,99.2027,109.9651,109.2455
26.4307,100.0257,104.4167,101.505,96.3241,93.6807,101.454
26.7817,97.4931,100.9356,100.0833,93.1383,92.8992,98.8925
27.1327,99.4081,100.9373,95.9804,95.0561,91.6684,98.4198
27.4837,97.3469,101.4592,98.3554,90.9365,88.8522,100.2451
27.8347,94.7407,98.5541,96.8832,89.1085,89.3056,97.8127
28.1857,103.2841,100.8732,101.616,100.3547,97.1078,102.4635
28.5367,93.3572,98.9525,97.4861,88.5069,87.7619,99.4053
28.8877,97.5805,95.6836,93.3918,89.118,87.0476,97.8071
29.2387,95.95,97.3974,94.117,92.4134,87.9939,98.8842
29.5897,114.1274,117.4625,110.5009,110.4025,115.9826,109.3598
29.9407,173.3365,129.3266,135.6836,222.1058,168.5653,145.0894
30.2917,96.8249,104.1374,97.9183,91.5063,91.6295,97.3991
30.6427,94.6898,97.5868,93.7615,86.8414,88.1702,93.0424
30.9937,93.9912,95.9219,93.7427,85.7866,84.7542,91.8776
31.3447,91.3267,94.417,92.2352,83.7431,84.1726,91.4145
31.6957,90.0501,92.0708,91.6027,85.2977,85.0282,91.6564
32.0467,94.4617,97.2994,94.0879,87.4211,88.0408,91.8827
32.3977,94.4631,92.1193,90.4893,87.0579,82.8374,90.9136
32.7487,107.2949,98.0362,96.4766,121.6725,95.882,100.9736
33.0997,89.501,97.2798,92.5024,85.0121,84.1538,93.0021
33.4507,89.1047,89.9063,88.8979,83.1096,81.8093,90.9008
33.8017,89.012,91.1921,87.1104,83.6345,81.9561,88.8936
34.1527,88.6742,90.9735,87.8526,79.7656,79.2538,86.5953
34.5037,90.5597,89.7911,86.7282,91.3086,83.5847,87.3645
34.8547,103.7394,124.7552,109.9267,92.6261,113.1519,98.0256
35.2057,88.8001,89.631,86.2641,84.7569,81.7709,88.3032
35.5567,92.9759,95.3973,88.3639,89.8205,84.7008,89.1288
35.9077,100.2068,103.1947,100.666,94.5988,102.3964,92.4576
36.2587,84.9635,86.7379,86.253,83.3109,77.954,85.5059
36.6097,86.1177,86.522,83.8891,78.7541,78.396,85.4953
36.9607,85.2622,87.7394,83.6964,81.2154,78.5006,82.9154
37.3117,84.6797,84.0573,85.2733,82.0223,77.387,85.4479
37.6627,84.9717,88.0963,86.3788,81.5844,80.5515,85.8051
38.0137,82.8954,86.3576,84.7163,80.1887,78.3591,84.1374
38.3647,87.0525,87.2161,86.789,83.1531,79.462,84.1425
38.7157,108.1721,106.2278,102.2839,102.303,112.3406,98.3428
39.0667,85.8162,90.2591,84.6129,78.0842,77.5389,84.6345
39.4177,86.9061,88.2271,87.4088,81.0159,77.149,82.9488
39.7687,86.6916,85.6076,86.0625,79.2546,76.2779,83.6637
40.1197,87.627,86.6287,82.0134,81.3042,77.7687,84.8281
40.4707,86.6631,93.3048,88.4206,83.3945,84.0799,89.0063
40.8217,85.1605,88.7861,87.6841,79.7015,77.2639,85.2086
41.1727,86.6957,86.493,87.5387,79.0951,78.7536,83.1178
41.5237,95.4524,87.2515,89.7142,112.569,87.2347,92.7914
41.8747,89.5286,105.2896,91.3541,80.5958,84.1311,87.5946
42.2257,87.1247,85.9191,86.2661,77.7204,78.1004,85.0334
42.5767,86.2421,86.6923,84.7692,79.1158,77.6768,84.026
42.9277,101.2461,92.4241,94.6898,96.7035,95.0938,91.1962
43.2787,87.6381,88.4108,84.8415,78.4848,79.7086,85.6524
43.6297,90.8303,87.2048,89.4617,97.1302,82.4408,89.885
43.9807,104.3008,125.4499,105.9319,93.1751,109.3719,97.572
44.3317,87.2542,93.3548,89.6574,78.9518,82.4774,85.3851
44.6827,87.7269,85.1785,84.9352,77.9976,74.2156,83.8506
45.0337,81.6031,83.1253,81.4265,74.3002,73.3887,80.5768
45.3847,87.0532,85.5972,84.2994,80.0662,78.1645,84.5105
45.7357,85.3922,84.2829,83.8753,80.2551,73.9448,78.9366
46.0867,84.1181,84.5623,84.5314,82.266,74.6917,82.4971
46.4377,83.4373,88.8175,83.425,76.2276,76.2305,80.881
46.7887,79.2339,81.3548,80.201,73.8604,72.6488,78.0966
47.1397,82.3404,80.341,81.2348,74.7703,72.8171,78.6665
47.4907,79.0113,79.977,80.1306,71.6818,71.0226,78.1452
47.8417,76.999,78.662,80.0687,70.6594,70.9674,77.9301
48.1927,80.8427,83.1225,82.5677,73.6826,70.5932,76.9954
48.5437,76.7726,79.4174,83.3222,71.3223,72.6073,74.5483
48.8947,81.2934,80.5979,81.9487,70.4285,68.7071,76.2098
49.2457,79.409,78.3401,78.1412,72.1827,68.5567,77.9835
49.5967,78.76,80.3276,79.1122,72.5803,68.9471,76.5275
49.9477,79.2439,79.7155,79.3577,72.1951,70.8649,80.5013
50.2987,79.9171,80.8204,80.1849,73.7686,70.3857,78.7572
50.6497,86.4574,83.3872,83.9615,102.5826,78.229,88.2453
51.0007,93.2984,104.943,94.6852,94.6242,93.122,89.0519
51.3517,79.7287,93.1246,84.6809,73.3003,74.5045,78.6401
51.7027,79.9823,82.49,82.8399,69.7026,68.0667,80.3208
52.0537,85.0405,80.3196,84.5648,88.5159,77.525,82.8654
52.4047,81.5068,87.8411,84.3207,74.3311,73.1969,76.4913
52.7557,79.6306,82.7964,82.3231,75.5137,71.7563,81.8914
53.1067,83.9648,85.3294,83.5135,80.6912,76.0093,79.4439
53.4577,79.9157,85.0168,80.2255,74.1575,72.8101,78.4649
53.8087,78.2703,81.2829,81.2536,72.3124,70.7215,76.2408
54.1597,76.9292,77.9463,78.9256,70.1616,66.4931,76.0962
54.5107,76.5105,79.0804,78.8459,71.0692,70.752,75.5551
54.8617,77.7388,78.8366,78.9173,71.1949,69.4818,75.84
55.2127,80.0135,80.2171,80.5471,73.0022,71.8006,77.312
55.5637,78.8189,79.5183,77.7792,71.7895,68.268,76.508
55.9147,75.697,80.0954,80.9154,71.5618,69.0611,72.852
56.2657,81.8349,80.2686,82.314,85.5569,75.9958,78.0552
56.6167,78.9915,86.0398,82.7099,71.7457,74.1751,78.8176
56.9677,81.3516,84.7131,81.9298,77.1136,74.4171,78.8693
57.3187,79.2337,82.9236,80.1261,71.6703,72.6546,75.8144
57.6697,79.2939,80.0659,79.186,72.035,67.8955,77.9336
58.0207,75.9917,81.5952,79.1401,69.0411,68.8019,76.7105
58.3717,81.3228,78.6511,79.5067,72.846,72.0556,76.7143
58.7227,78.2858,81.5427,80.7981,71.4333,68.5818,78.1875
59.0737,87.3088,81.2534,81.3662,91.3662,82.6711,83.8652
59.4247,86.7976,87.6483,90.0632,79.3431,82.2993,82.7254
59.7757,77.1972,84.4544,77.9805,70.8166,67.6748,74.919
59.9317,78.6388,80.3823,79.387,67.5333,66.3378,77.0881